{
    "resourceType": "Bundle",
    "id": "32204712-faa9-4672-8ac1-0ffe210a3261",
    "meta": {
        "lastUpdated": "2025-04-22T10:44:42.090+00:00"
    },
    "type": "searchset",
    "total": 1,
    "link": [
        {
            "relation": "self",
            "url": "http://localhost:8080/fhir/DiagnosticReport?_id=71&_include=*"
        }
    ],
    "entry": [
        {
            "fullUrl": "http://localhost:8080/fhir/DiagnosticReport/71",
            "resource": {
                "resourceType": "DiagnosticReport",
                "id": "71",
                "meta": {
                    "versionId": "1",
                    "lastUpdated": "2025-04-22T10:44:42.043+00:00",
                    "source": "#3JFRvkvxg8rbBujW"
                },
                "status": "final",
                "code": {
                    "coding": [
                        {
                            "system": "http://snomed.info/sct",
                            "code": "113076002",
                            "display": "Glucose tolerance test (procedure)"
                        },
                        {
                            "system": "http://snomed.info/sct",
                            "code": "43396009",
                            "display": "Hemoglobin A1c measurement"
                        }
                    ]
                },
                "subject": {
                    "reference": "Patient/42"
                },
                "issued": "2025-04-12T12:45:00",
                "performer": [
                    {
                        "reference": "Organization/67"
                    }
                ],
                "resultsInterpreter": [
                    {
                        "reference": "Practitioner/43"
                    }
                ],
                "specimen": [
                    {
                        "reference": "Specimen/68"
                    }
                ],
                "result": [
                    {
                        "reference": "Observation/69"
                    },
                    {
                        "reference": "Observation/70"
                    }
                ],
                "conclusion": "Wyniki mieszcz\u0105 si\u0119 w zakresie warto\u015bci referencyjnych."
            },
            "search": {
                "mode": "match"
            }
        },
        {
            "fullUrl": "http://localhost:8080/fhir/Organization/67",
            "resource": {
                "resourceType": "Organization",
                "id": "67",
                "meta": {
                    "versionId": "1",
                    "lastUpdated": "2025-04-22T10:44:41.929+00:00",
                    "source": "#OQEekYlIlzR34buQ"
                },
                "name": "Laboratorium Diagnostyczne we Wroc\u0142awiu"
            },
            "search": {
                "mode": "include"
            }
        },
        {
            "fullUrl": "http://localhost:8080/fhir/Specimen/68",
            "resource": {
                "resourceType": "Specimen",
                "id": "68",
                "meta": {
                    "versionId": "1",
                    "lastUpdated": "2025-04-22T10:44:41.947+00:00",
                    "source": "#bUFVSgdQS2mlNHZb"
                },
                "identifier": [
                    {
                        "system": "http://ezdrowie.gov.pl/e-probka/identyfikator",
                        "value": "SPC-20250411-001"
                    }
                ],
                "type": {
                    "coding": [
                        {
                            "system": "http://snomed.info/sct",
                            "code": "119297000",
                            "display": "Blood specimen"
                        }
                    ]
                },
                "collection": {
                    "collectedDateTime": "2025-04-12T12:08:00+02:00",
                    "method": {
                        "text": "Pobranie krwi \u017cylnej"
                    },
                    "bodySite": {
                        "concept": {
                            "text": "\u017by\u0142a od\u0142okciowa"
                        }
                    }
                }
            },
            "search": {
                "mode": "include"
            }
        },
        {
            "fullUrl": "http://localhost:8080/fhir/Observation/69",
            "resource": {
                "resourceType": "Observation",
                "id": "69",
                "meta": {
                    "versionId": "1",
                    "lastUpdated": "2025-04-22T10:44:41.971+00:00",
                    "source": "#K9vupwsqCbQg5iBV"
                },
                "status": "final",
                "category": [
                    {
                        "coding": [
                            {
                                "system": "http://terminology.hl7.org/CodeSystem/observation-category",
                                "code": "laboratory"
                            }
                        ]
                    }
                ],
                "code": {
                    "coding": [
                        {
                            "system": "http://snomed.info/sct",
                            "code": "33747003",
                            "display": "Glucose measurement, blood"
                        }
                    ]
                },
                "subject": {
                    "reference": "Patient/42"
                },
                "effectiveDateTime": "2025-04-12T12:09:00+02:00",
                "valueQuantity": {
                    "value": 91.0,
                    "unit": "mg/dl"
                },
                "specimen": {
                    "reference": "Specimen/68"
                }
            },
            "search": {
                "mode": "include"
            }
        },
        {
            "fullUrl": "http://localhost:8080/fhir/Observation/70",
            "resource": {
                "resourceType": "Observation",
                "id": "70",
                "meta": {
                    "versionId": "1",
                    "lastUpdated": "2025-04-22T10:44:42.004+00:00",
                    "source": "#42FcNna9YIARhueX"
                },
                "status": "final",
                "category": [
                    {
                        "coding": [
                            {
                                "system": "http://terminology.hl7.org/CodeSystem/observation-category",
                                "code": "laboratory"
                            }
                        ]
                    }
                ],
                "code": {
                    "coding": [
                        {
                            "system": "http://snomed.info/sct",
                            "code": "43396009",
                            "display": "Hemoglobin A1c measurement"
                        }
                    ]
                },
                "subject": {
                    "reference": "Patient/42"
                },
                "effectiveDateTime": "2025-04-13T10:00:00+02:00",
                "valueQuantity": {
                    "value": 5.2,
                    "unit": "mmol/mol"
                },
                "specimen": {
                    "reference": "Specimen/68"
                }
            },
            "search": {
                "mode": "include"
            }
        },
        {
            "fullUrl": "http://localhost:8080/fhir/Patient/42",
            "resource": {
                "resourceType": "Patient",
                "id": "42",
                "meta": {
                    "versionId": "1",
                    "lastUpdated": "2025-04-22T10:32:03.946+00:00",
                    "source": "#dxrPv2ZHzyVqYq9l"
                },
                "identifier": [
                    {
                        "system": "urn:oid:2.16.840.1.113883.3.4424.1.1.616",
                        "value": "80010112347"
                    }
                ]
            },
            "search": {
                "mode": "include"
            }
        },
        {
            "fullUrl": "http://localhost:8080/fhir/Practitioner/43",
            "resource": {
                "resourceType": "Practitioner",
                "id": "43",
                "meta": {
                    "versionId": "1",
                    "lastUpdated": "2025-04-22T10:32:03.971+00:00",
                    "source": "#28O1IrVrVCAsSnDt"
                },
                "identifier": [
                    {
                        "system": "pl.gov.krdl",
                        "value": "2345678"
                    }
                ],
                "name": [
                    {
                        "family": "Nowak",
                        "given": [
                            "Andrzej"
                        ],
                        "prefix": [
                            "mgr"
                        ]
                    }
                ]
            },
            "search": {
                "mode": "include"
            }
        }
    ]
}