{
    "resourceType": "Bundle",
    "id": "4ccc4ba5-09c9-4768-8282-830558dfd2bc",
    "meta": {
        "lastUpdated": "2025-04-12T17:29:51.004+00:00"
    },
    "type": "searchset",
    "total": 1,
    "link": [
        {
            "relation": "self",
            "url": "http://localhost:8080/fhir/DiagnosticReport?_id=181&_include=DiagnosticReport%3Asubject&_include=DiagnosticReport%3Aresults-interpreter&_include=DiagnosticReport%3Aspecimen&_include=DiagnosticReport%3Aresult"
        }
    ],
    "entry": [
        {
            "fullUrl": "http://localhost:8080/fhir/DiagnosticReport/181",
            "resource": {
                "resourceType": "DiagnosticReport",
                "id": "181",
                "meta": {
                    "versionId": "1",
                    "lastUpdated": "2025-04-12T17:29:50.963+00:00",
                    "source": "#dKafUME4AgRkHiIO"
                },
                "status": "final",
                "code": {
                    "coding": [
                        {
                            "system": "http://snomed.info/sct",
                            "code": "113076002",
                            "display": "Glucose tolerance test (procedure)"
                        },
                        {
                            "system": "http://snomed.info/sct",
                            "code": "43396009",
                            "display": "Hemoglobin A1c measurement"
                        }
                    ]
                },
                "subject": {
                    "reference": "Patient/1"
                },
                "issued": "2025-04-12T12:45:00",
                "performer": [
                    {
                        "reference": "Organization/177"
                    }
                ],
                "resultsInterpreter": [
                    {
                        "reference": "Practitioner/2"
                    }
                ],
                "specimen": [
                    {
                        "reference": "Specimen/178"
                    }
                ],
                "result": [
                    {
                        "reference": "Observation/179"
                    },
                    {
                        "reference": "Observation/180"
                    }
                ],
                "conclusion": "Wyniki mieszcz\u0105 si\u0119 w zakresie warto\u015bci referencyjnych."
            },
            "search": {
                "mode": "match"
            }
        },
        {
            "fullUrl": "http://localhost:8080/fhir/Patient/1",
            "resource": {
                "resourceType": "Patient",
                "id": "1",
                "meta": {
                    "versionId": "1",
                    "lastUpdated": "2025-04-12T10:12:54.384+00:00",
                    "source": "#5VdHMc0eb4IgR3Al"
                },
                "identifier": [
                    {
                        "system": "urn:oid:2.16.840.1.113883.3.4424.1.1.616",
                        "value": "80010112347"
                    }
                ]
            },
            "search": {
                "mode": "include"
            }
        },
        {
            "fullUrl": "http://localhost:8080/fhir/Specimen/178",
            "resource": {
                "resourceType": "Specimen",
                "id": "178",
                "meta": {
                    "versionId": "1",
                    "lastUpdated": "2025-04-12T17:29:50.856+00:00",
                    "source": "#5ezWdbeCLpcfdRW9"
                },
                "identifier": [
                    {
                        "system": "http://ezdrowie.gov.pl/e-probka/identyfikator",
                        "value": "SPC-20250411-001"
                    }
                ],
                "type": {
                    "coding": [
                        {
                            "system": "http://snomed.info/sct",
                            "code": "119297000",
                            "display": "Blood specimen"
                        }
                    ]
                },
                "collection": {
                    "collectedDateTime": "2025-04-12T12:08:00+02:00",
                    "method": {
                        "text": "Pobranie krwi \u017cylnej"
                    }
                }
            },
            "search": {
                "mode": "include"
            }
        },
        {
            "fullUrl": "http://localhost:8080/fhir/Practitioner/2",
            "resource": {
                "resourceType": "Practitioner",
                "id": "2",
                "meta": {
                    "versionId": "1",
                    "lastUpdated": "2025-04-12T10:12:54.694+00:00",
                    "source": "#kfg6V9yb7DrDpzgn"
                },
                "identifier": [
                    {
                        "system": "pl.gov.krdl",
                        "value": "2345678"
                    }
                ],
                "name": [
                    {
                        "family": "Nowak",
                        "given": [
                            "Andrzej"
                        ],
                        "prefix": [
                            "mgr"
                        ]
                    }
                ]
            },
            "search": {
                "mode": "include"
            }
        },
        {
            "fullUrl": "http://localhost:8080/fhir/Observation/179",
            "resource": {
                "resourceType": "Observation",
                "id": "179",
                "meta": {
                    "versionId": "1",
                    "lastUpdated": "2025-04-12T17:29:50.884+00:00",
                    "source": "#gnOyARm1Bgx4Ua2a"
                },
                "status": "final",
                "category": [
                    {
                        "coding": [
                            {
                                "system": "http://terminology.hl7.org/CodeSystem/observation-category",
                                "code": "laboratory"
                            }
                        ]
                    }
                ],
                "code": {
                    "coding": [
                        {
                            "system": "http://snomed.info/sct",
                            "code": "33747003",
                            "display": "Glucose measurement, blood"
                        }
                    ]
                },
                "subject": {
                    "reference": "Patient/1"
                },
                "effectiveDateTime": "2025-04-12T12:09:00+02:00",
                "valueQuantity": {
                    "value": 91.0,
                    "unit": "mg/dl"
                },
                "specimen": {
                    "reference": "Specimen/178"
                }
            },
            "search": {
                "mode": "include"
            }
        },
        {
            "fullUrl": "http://localhost:8080/fhir/Observation/180",
            "resource": {
                "resourceType": "Observation",
                "id": "180",
                "meta": {
                    "versionId": "1",
                    "lastUpdated": "2025-04-12T17:29:50.925+00:00",
                    "source": "#Bo0bXg76cZwMaFlt"
                },
                "status": "final",
                "category": [
                    {
                        "coding": [
                            {
                                "system": "http://terminology.hl7.org/CodeSystem/observation-category",
                                "code": "laboratory"
                            }
                        ]
                    }
                ],
                "code": {
                    "coding": [
                        {
                            "system": "http://snomed.info/sct",
                            "code": "43396009",
                            "display": "Hemoglobin A1c measurement"
                        }
                    ]
                },
                "subject": {
                    "reference": "Patient/1"
                },
                "effectiveDateTime": "2025-04-13T10:00:00+02:00",
                "valueQuantity": {
                    "value": 5.2,
                    "unit": "mmol/mol"
                },
                "specimen": {
                    "reference": "Specimen/178"
                }
            },
            "search": {
                "mode": "include"
            }
        }
    ]
}