{
    "resourceType": "Bundle",
    "id": "c39e9e66-b1ba-451a-b7fd-54cd94d457fd",
    "meta": {
        "lastUpdated": "2025-04-13T07:35:44.500+00:00"
    },
    "type": "searchset",
    "total": 1,
    "link": [
        {
            "relation": "self",
            "url": "http://localhost:8080/fhir/ServiceRequest?_id=38&_include=*"
        }
    ],
    "entry": [
        {
            "fullUrl": "http://localhost:8080/fhir/ServiceRequest/38",
            "resource": {
                "resourceType": "ServiceRequest",
                "id": "38",
                "meta": {
                    "versionId": "1",
                    "lastUpdated": "2025-04-13T07:35:44.462+00:00",
                    "source": "#BoLuQFBeIF6RoK2p"
                },
                "identifier": [
                    {
                        "system": "http://ezdrowie.gov.pl/e-skierowanie/identyfikator",
                        "value": "PL-2025-000234"
                    }
                ],
                "status": "active",
                "intent": "order",
                "priority": "routine",
                "code": {
                    "concept": {
                        "text": "Morfologia krwi"
                    }
                },
                "subject": {
                    "reference": "Patient/1"
                },
                "authoredOn": "2025-04-11T13:05:00+01:00",
                "requester": {
                    "reference": "Practitioner/2"
                },
                "location": [
                    {
                        "reference": {
                            "reference": "Organization/35"
                        }
                    }
                ],
                "reason": [
                    {
                        "concept": {
                            "text": "Kontrola parametr\u00f3w krwi po przebytej infekcji (podejrzenie anemii)"
                        }
                    }
                ],
                "note": [
                    {
                        "text": "Skierowanie na podstawowe badanie morfologiczne krwi w celu kontroli po infekcji"
                    }
                ]
            },
            "search": {
                "mode": "match"
            }
        },
        {
            "fullUrl": "http://localhost:8080/fhir/Patient/1",
            "resource": {
                "resourceType": "Patient",
                "id": "1",
                "meta": {
                    "versionId": "1",
                    "lastUpdated": "2025-04-13T07:05:13.595+00:00",
                    "source": "#bHHJyyGHDZJd1aVX"
                },
                "identifier": [
                    {
                        "system": "urn:oid:2.16.840.1.113883.3.4424.1.1.616",
                        "value": "80010112346"
                    }
                ]
            },
            "search": {
                "mode": "include"
            }
        },
        {
            "fullUrl": "http://localhost:8080/fhir/Practitioner/2",
            "resource": {
                "resourceType": "Practitioner",
                "id": "2",
                "meta": {
                    "versionId": "1",
                    "lastUpdated": "2025-04-13T07:05:13.985+00:00",
                    "source": "#DBwekJdRjB98QbNw"
                },
                "identifier": [
                    {
                        "system": "pl.gov.npwz",
                        "value": "3456789"
                    }
                ],
                "name": [
                    {
                        "family": "Wo\u017aniak",
                        "given": [
                            "Krystyna"
                        ],
                        "prefix": [
                            "lek."
                        ]
                    }
                ]
            },
            "search": {
                "mode": "include"
            }
        },
        {
            "fullUrl": "http://localhost:8080/fhir/AllergyIntolerance/37",
            "resource": {
                "resourceType": "AllergyIntolerance",
                "id": "37",
                "meta": {
                    "versionId": "1",
                    "lastUpdated": "2025-04-13T07:35:44.432+00:00",
                    "source": "#IbvOHvnYc0n9sfgd"
                },
                "type": {
                    "text": "allergy"
                },
                "category": [
                    "medication"
                ],
                "criticality": "high",
                "code": {
                    "text": "Penicylina"
                },
                "patient": {
                    "reference": "Patient/1"
                },
                "reaction": [
                    {
                        "manifestation": [
                            {
                                "concept": {
                                    "text": "Wysypka, obrz\u0119k twarzy po przyj\u0119ciu penicyliny"
                                }
                            }
                        ]
                    }
                ]
            },
            "search": {
                "mode": "match"
            }
        },
        {
            "fullUrl": "http://localhost:8080/fhir/Organization/35",
            "resource": {
                "resourceType": "Organization",
                "id": "35",
                "meta": {
                    "versionId": "1",
                    "lastUpdated": "2025-04-13T07:35:44.370+00:00",
                    "source": "#QwWjwoXIHImkUoL7"
                },
                "name": "Poradnia Neurologiczna We Wroc\u0142awiu"
            },
            "search": {
                "mode": "match"
            }
        }
    ]
}