{
    "resourceType": "Bundle",
    "id": "4a26b0be-20c4-4a7c-8540-fc13a23ae179",
    "meta": {
        "lastUpdated": "2025-04-22T10:44:41.694+00:00"
    },
    "type": "searchset",
    "total": 1,
    "link": [
        {
            "relation": "self",
            "url": "http://localhost:8080/fhir/ServiceRequest?_id=66&_include=*"
        }
    ],
    "entry": [
        {
            "fullUrl": "http://localhost:8080/fhir/ServiceRequest/66",
            "resource": {
                "resourceType": "ServiceRequest",
                "id": "66",
                "meta": {
                    "versionId": "1",
                    "lastUpdated": "2025-04-22T10:44:41.663+00:00",
                    "source": "#9zjKNJHh5oJQ9qMa"
                },
                "identifier": [
                    {
                        "system": "http://ezdrowie.gov.pl/e-skierowanie/identyfikator",
                        "value": "PL-2025-000234"
                    }
                ],
                "status": "active",
                "intent": "order",
                "priority": "routine",
                "code": {
                    "concept": {
                        "text": "Morfologia krwi"
                    }
                },
                "subject": {
                    "reference": "Patient/35"
                },
                "authoredOn": "2025-04-11T13:05:00+01:00",
                "requester": {
                    "reference": "Practitioner/36"
                },
                "location": [
                    {
                        "reference": {
                            "reference": "Organization/62"
                        }
                    }
                ],
                "reason": [
                    {
                        "reference": {
                            "reference": "Condition/63"
                        }
                    },
                    {
                        "reference": {
                            "reference": "Condition/64"
                        }
                    }
                ],
                "supportingInfo": [
                    {
                        "reference": {
                            "reference": "AllergyIntolerance/65"
                        }
                    }
                ],
                "note": [
                    {
                        "text": "Skierowanie na podstawowe badanie morfologiczne krwi w celu kontroli po infekcji"
                    }
                ]
            },
            "search": {
                "mode": "match"
            }
        },
        {
            "fullUrl": "http://localhost:8080/fhir/Patient/35",
            "resource": {
                "resourceType": "Patient",
                "id": "35",
                "meta": {
                    "versionId": "1",
                    "lastUpdated": "2025-04-22T10:32:03.525+00:00",
                    "source": "#ptinp8fOMnAvQkK6"
                },
                "identifier": [
                    {
                        "system": "urn:oid:2.16.840.1.113883.3.4424.1.1.616",
                        "value": "80010112346"
                    }
                ]
            },
            "search": {
                "mode": "include"
            }
        },
        {
            "fullUrl": "http://localhost:8080/fhir/Practitioner/36",
            "resource": {
                "resourceType": "Practitioner",
                "id": "36",
                "meta": {
                    "versionId": "1",
                    "lastUpdated": "2025-04-22T10:32:03.554+00:00",
                    "source": "#r7tUmqyBbIAHDkBu"
                },
                "identifier": [
                    {
                        "system": "pl.gov.npwz",
                        "value": "3456789"
                    }
                ],
                "name": [
                    {
                        "family": "Wo\u017aniak",
                        "given": [
                            "Krystyna"
                        ],
                        "prefix": [
                            "lek."
                        ]
                    }
                ]
            },
            "search": {
                "mode": "include"
            }
        },
        {
            "fullUrl": "http://localhost:8080/fhir/Condition/63",
            "resource": {
                "resourceType": "Condition",
                "id": "63",
                "meta": {
                    "versionId": "1",
                    "lastUpdated": "2025-04-22T10:44:41.581+00:00",
                    "source": "#RgaxoiGT6c512GAi"
                },
                "clinicalStatus": {
                    "coding": [
                        {
                            "system": "http://terminology.hl7.org/CodeSystem/condition-clinical",
                            "code": "resolved",
                            "display": "Resolved"
                        }
                    ]
                },
                "verificationStatus": {
                    "coding": [
                        {
                            "system": "http://terminology.hl7.org/CodeSystem/condition-ver-status",
                            "code": "confirmed",
                            "display": "Confirmed"
                        }
                    ]
                },
                "category": [
                    {
                        "coding": [
                            {
                                "system": "http://terminology.hl7.org/CodeSystem/condition-category",
                                "code": "encounter-diagnosis",
                                "display": "Encounter Diagnosis"
                            }
                        ]
                    }
                ],
                "code": {
                    "text": "Grypa"
                },
                "subject": {
                    "reference": "Patient/35"
                },
                "onsetDateTime": "2025-04-01",
                "abatementDateTime": "2025-04-10"
            },
            "search": {
                "mode": "match"
            }
        },
        {
            "fullUrl": "http://localhost:8080/fhir/Condition/64",
            "resource": {
                "resourceType": "Condition",
                "id": "64",
                "meta": {
                    "versionId": "1",
                    "lastUpdated": "2025-04-22T10:44:41.612+00:00",
                    "source": "#iuiCxh1YNFBNxsBI"
                },
                "clinicalStatus": {
                    "coding": [
                        {
                            "system": "http://terminology.hl7.org/CodeSystem/condition-clinical",
                            "code": "active",
                            "display": "Active"
                        }
                    ]
                },
                "verificationStatus": {
                    "coding": [
                        {
                            "system": "http://terminology.hl7.org/CodeSystem/condition-ver-status",
                            "code": "provisional",
                            "display": "Provisional"
                        }
                    ]
                },
                "category": [
                    {
                        "coding": [
                            {
                                "system": "http://terminology.hl7.org/CodeSystem/condition-category",
                                "code": "encounter-diagnosis",
                                "display": "Encounter Diagnosis"
                            }
                        ]
                    }
                ],
                "code": {
                    "text": "Anemia"
                },
                "subject": {
                    "reference": "Patient/35"
                }
            },
            "search": {
                "mode": "match"
            }
        },
        {
            "fullUrl": "http://localhost:8080/fhir/AllergyIntolerance/65",
            "resource": {
                "resourceType": "AllergyIntolerance",
                "id": "65",
                "meta": {
                    "versionId": "1",
                    "lastUpdated": "2025-04-22T10:44:41.637+00:00",
                    "source": "#UstSHC5sTzWeGxWP"
                },
                "type": {
                    "text": "allergy"
                },
                "category": [
                    "medication"
                ],
                "criticality": "high",
                "code": {
                    "text": "Penicylina"
                },
                "patient": {
                    "reference": "Patient/35"
                },
                "reaction": [
                    {
                        "manifestation": [
                            {
                                "concept": {
                                    "text": "Wysypka, obrz\u0119k twarzy po przyj\u0119ciu penicyliny"
                                }
                            }
                        ]
                    }
                ]
            },
            "search": {
                "mode": "match"
            }
        },
        {
            "fullUrl": "http://localhost:8080/fhir/Organization/62",
            "resource": {
                "resourceType": "Organization",
                "id": "62",
                "meta": {
                    "versionId": "1",
                    "lastUpdated": "2025-04-22T10:44:41.561+00:00",
                    "source": "#ccMyMIIt9UGmyweA"
                },
                "name": "Poradnia Neurologiczna We Wroc\u0142awiu"
            },
            "search": {
                "mode": "match"
            }
        }
    ]
}