{
    "resourceType": "Bundle",
    "id": "00c400c8-8621-422e-b345-4422ccea2f17",
    "meta": {
        "lastUpdated": "2025-04-22T10:44:41.142+00:00"
    },
    "type": "searchset",
    "total": 1,
    "link": [
        {
            "relation": "self",
            "url": "http://localhost:8080/fhir/Observation?_id=58&_include=*"
        }
    ],
    "entry": [
        {
            "fullUrl": "http://localhost:8080/fhir/Observation/58",
            "resource": {
                "resourceType": "Observation",
                "id": "58",
                "meta": {
                    "versionId": "1",
                    "lastUpdated": "2025-04-22T10:44:41.104+00:00",
                    "source": "#F4deVHf1zUBI0yjH"
                },
                "status": "final",
                "category": [
                    {
                        "coding": [
                            {
                                "system": "http://terminology.hl7.org/CodeSystem/observation-category",
                                "code": "vital-signs"
                            }
                        ]
                    }
                ],
                "code": {
                    "text": "Pomiar ci\u015bnienia wewn\u0105trzga\u0142kowego."
                },
                "subject": {
                    "reference": "Patient/13"
                },
                "encounter": {
                    "reference": "Encounter/57"
                },
                "performer": [
                    {
                        "reference": "Practitioner/14"
                    }
                ],
                "valueQuantity": {
                    "value": 17.0,
                    "unit": "mmHg",
                    "system": "http://unitsofmeasure.org",
                    "code": "mm[Hg]"
                },
                "interpretation": [
                    {
                        "text": "Wynik w granicach normy."
                    }
                ],
                "note": [
                    {
                        "text": "Pomiar przeprowadzono zgodnie z procedur\u0105."
                    },
                    {
                        "text": "Brak czynnik\u00f3w zak\u0142\u00f3caj\u0105cych pomiar."
                    }
                ],
                "bodySite": {
                    "text": "Left eye"
                },
                "method": {
                    "text": "Tonometria aplanacyjna"
                },
                "device": {
                    "reference": "Device/56"
                }
            },
            "search": {
                "mode": "match"
            }
        },
        {
            "fullUrl": "http://localhost:8080/fhir/Device/56",
            "resource": {
                "resourceType": "Device",
                "id": "56",
                "meta": {
                    "versionId": "1",
                    "lastUpdated": "2025-04-22T10:44:41.036+00:00",
                    "source": "#fVUAwzqx9qrO8Z1K"
                },
                "definition": {
                    "reference": {
                        "reference": "DeviceDefinition/55"
                    }
                },
                "availabilityStatus": {
                    "text": "available"
                },
                "manufactureDate": "2021-03-15",
                "serialNumber": "DEVICE-PL-2020",
                "name": [
                    {
                        "value": "Tonometr Goldmanna TG-100",
                        "type": "registered-name"
                    }
                ],
                "owner": {
                    "reference": "Organization/54"
                },
                "note": [
                    {
                        "text": "Ostatnia kalibracja: 2025-04-10"
                    },
                    {
                        "text": "Ostatnie czyszczenie: 2025-04-10"
                    },
                    {
                        "text": "Ostatni serwis: 2024-12-20"
                    },
                    {
                        "text": "Lokalizacja: Gabinet 12, ul. Gajowa 5, Wroc\u0142aw"
                    }
                ]
            },
            "search": {
                "mode": "include"
            }
        },
        {
            "fullUrl": "http://localhost:8080/fhir/Encounter/57",
            "resource": {
                "resourceType": "Encounter",
                "id": "57",
                "meta": {
                    "versionId": "1",
                    "lastUpdated": "2025-04-22T10:44:41.068+00:00",
                    "source": "#g45hZ1jTlvutTC2B"
                },
                "identifier": [
                    {
                        "system": "local",
                        "value": "ZLEC-PL-2025-000423"
                    },
                    {
                        "system": "local",
                        "value": "STUDY-PL-2025-000424"
                    }
                ],
                "status": "completed",
                "class": [
                    {
                        "text": "ambulatory"
                    }
                ],
                "priority": {
                    "text": "Planowe"
                },
                "subject": {
                    "reference": "Patient/13"
                },
                "serviceProvider": {
                    "reference": "Organization/54"
                },
                "actualPeriod": {
                    "start": "2025-04-14T09:30:00+01:00",
                    "end": "2025-04-14T09:37:00+01:00"
                },
                "reason": [
                    {
                        "use": [
                            {
                                "text": "Przesiew w kierunku retinopatii cukrzycowej (DR screening)"
                            }
                        ]
                    }
                ]
            },
            "search": {
                "mode": "include"
            }
        },
        {
            "fullUrl": "http://localhost:8080/fhir/Patient/13",
            "resource": {
                "resourceType": "Patient",
                "id": "13",
                "meta": {
                    "versionId": "1",
                    "lastUpdated": "2025-04-22T10:31:49.338+00:00",
                    "source": "#hjHb2vuLwtE7Peve"
                },
                "identifier": [
                    {
                        "system": "urn:oid:2.16.840.1.113883.3.4424.1.1.616",
                        "value": "80010112349"
                    }
                ]
            },
            "search": {
                "mode": "include"
            }
        },
        {
            "fullUrl": "http://localhost:8080/fhir/Practitioner/14",
            "resource": {
                "resourceType": "Practitioner",
                "id": "14",
                "meta": {
                    "versionId": "1",
                    "lastUpdated": "2025-04-22T10:31:49.377+00:00",
                    "source": "#f8mJ3B79iRqPAkfp"
                },
                "identifier": [
                    {
                        "system": "pl.gov.npwz",
                        "value": "4567890"
                    }
                ],
                "name": [
                    {
                        "family": "Szyma\u0144ski",
                        "given": [
                            "Micha\u0142"
                        ],
                        "prefix": [
                            "lek."
                        ]
                    }
                ]
            },
            "search": {
                "mode": "include"
            }
        },
        {
            "fullUrl": "http://localhost:8080/fhir/Organization/54",
            "resource": {
                "resourceType": "Organization",
                "id": "54",
                "meta": {
                    "versionId": "1",
                    "lastUpdated": "2025-04-22T10:44:40.982+00:00",
                    "source": "#w3V9MOfQTAbvlSyR"
                },
                "name": "Poradnia Okulistyczna We Wroc\u0142awiu"
            },
            "search": {
                "mode": "match"
            }
        },
        {
            "fullUrl": "http://localhost:8080/fhir/DeviceDefinition/55",
            "resource": {
                "resourceType": "DeviceDefinition",
                "id": "55",
                "meta": {
                    "versionId": "1",
                    "lastUpdated": "2025-04-22T10:44:41.014+00:00",
                    "source": "#yIPUdGEgpTU5ck7n"
                },
                "description": "Urz\u0105dzenie do pomiaru ci\u015bnienia wewn\u0105trzga\u0142kowego metod\u0105 aplanacyjn\u0105.",
                "manufacturer": {
                    "display": "Sprz\u0119t optyczny S.A."
                },
                "deviceName": [
                    {
                        "name": "Tonometr Goldmanna TG-100",
                        "type": "registered-name"
                    }
                ],
                "modelNumber": "TG-100",
                "version": [
                    {
                        "type": {
                            "text": "hardware"
                        },
                        "value": "Rev. A"
                    },
                    {
                        "type": {
                            "text": "protocol"
                        },
                        "value": "1.0"
                    }
                ],
                "property": [
                    {
                        "type": {
                            "text": "Cz\u0119stotliwo\u015b\u0107 pr\u00f3bkowania"
                        },
                        "valueString": "Manualne odczyty"
                    },
                    {
                        "type": {
                            "text": "Zakres pomiarowy"
                        },
                        "valueRange": {
                            "low": {
                                "value": 0.0,
                                "unit": "mmHg"
                            },
                            "high": {
                                "value": 80.0,
                                "unit": "mmHg"
                            }
                        }
                    },
                    {
                        "type": {
                            "text": "Dok\u0142adno\u015b\u0107"
                        },
                        "valueQuantity": {
                            "value": 1.0,
                            "unit": "mmHg"
                        }
                    },
                    {
                        "type": {
                            "text": "Rozdzielczo\u015b\u0107"
                        },
                        "valueQuantity": {
                            "value": 0.5,
                            "unit": "mmHg"
                        }
                    }
                ]
            },
            "search": {
                "mode": "match"
            }
        }
    ]
}